Folder: chemometrics/exercises_2020/Data

Note: exercises_2020/Data/bloodpress.txt
Pt BP Age Weight BSA Dur Pulse Stress
1 105 47 85.4 1.75 5.1 63 33
2 115 49 94.2 2.10 3.8 70 14
3 116 49 95.3 1.98 8.2 72 10
4 117 50 94.7 2.01 5.8 73 99
5 112 51 89.4 1.89 7.0 72 95
6 121 48 99.5 2.25 9.3 71 10
7 121 49 99.8 2.25 2.5 69 42
8 110 47 90.9 1.90 6.2 66 8
9 110 49 89.2 1.83 7.1 69 62
10 114 48 92.7 2.07 5.6 64 35
11 114 47 94.4 2.07 5.3 74 90
12 115 49 94.1 1.98 5.6 71 21
13 114 50 91.6 2.05 10.2 68 47
14 106 45 87.1 1.92 5.6 67 80
15 125 52 101.3 2.19 10.0 76 98
16 114 46 94.5 1.98 7.4 69 95
17 106 46 87.0 1.87 3.6 62 18
18 113 46 94.5 1.90 4.3 70 12
19 110 48 90.5 1.88 9.0 71 99
20 122 56 95.7 2.09 7.0 75 99

Note: exercises_2020/Data/data1.txt
1.189194332595991632e+01
7.274296482242219142e+00
1.096975798676191260e+01
3.197057463846673997e+00
1.301257133579680136e+01
3.861114639167824159e+00
1.002050831252909013e+01
9.519089319375234837e+00
6.772072485708195089e+00
2.148727757995566634e+01
7.608708322374623911e+00
1.188982797414302972e+01
1.438382447203424519e+01
5.139324795631141640e+00
1.536942548575192546e+01
9.511400849326708595e+00
1.405006190790869169e+01
6.344523413176526461e+00
5.881879170502004150e+00
1.483918579852674746e+01
1.200748921511613254e+01
1.055538470862493483e+01
1.256304445336668607e+01
1.210933066044264628e+01
5.382559059133247281e+00
1.146666082412707510e+00
3.272973958419489904e+00
2.847622995751367014e+00
1.125860219874395440e+00
7.410276879337607703e+00
7.886382716742552645e+00
9.843163300685015216e+00
1.085990379366300473e+01
8.462564789785984587e+00
8.984383687632456983e+00
1.029300829841576714e+01
6.011184650301293786e+00
7.144574849573146480e+00
1.014166538456192690e+01
7.288218539509186300e+00
7.712475753653959210e+00
9.576550738670659868e+00
1.534332535468707448e+01
1.127466115206454234e+01
8.649618999799853825e+00
7.658926887970371133e+00
9.540320236840981849e+00
1.896727117758093328e+01
-2.589666086175920867e+00
1.214054357312046584e+01

Note: exercises_2020/Data/data4.txt
9.405697023115340727e+00
9.110382942730479883e+00
8.898607239758000276e+00
1.013794274374584425e+01
1.032439025247210118e+01
9.594993847663836561e+00
9.891111119906584648e+00
1.172108168076504420e+01
1.058367506652972878e+01
1.178557762612541104e+01
1.017873363714622847e+01
1.034035016146578734e+01
1.050297198232918561e+01
8.449933410568601033e+00
9.165330821968222352e+00
1.180668393580190134e+01
1.006649876808753774e+01
1.043004599896496210e+01
9.432473917612078651e+00
9.025030747848822088e+00
9.432008512914642040e+00
1.360704888736896123e+01
9.207125168825234240e+00
1.171767053182987617e+01
1.090035837956966525e+01
1.074719736832850003e+01
9.466262834516705027e+00
1.151089266894526730e+01
1.164187660366646604e+01
8.413961299527530358e+00
1.308503272745677570e+01
1.098806951240358742e+01
1.063427398435010396e+01
1.136558238447546643e+01
1.115347948755942298e+01
1.217672328765562817e+01
9.489503862696219372e+00
1.126465564834576405e+01
9.995294210281588931e+00
1.080526035492750303e+01
1.532372766939143105e+01
1.125883931230879220e+01
9.428223550518945117e+00
1.063563076977239774e+01
1.236215655577103512e+01
8.697512830135405437e+00
9.944949160525792919e+00
9.934618699997621150e+00
9.035150304895344320e+00
9.005489645211779859e+00

Note: exercises_2020/Data/data_exercise4.txt
x          y class
0    0.000000   0.938544   foo
1    0.101010  -0.139015   bar
2    0.202020   1.472451   foo
3    0.303030  -0.997021   bar
4    0.404040   0.111549   bar
5    0.505051   1.009522   foo
6    0.606061   0.712766   foo
7    0.707071  -0.383319   bar
8    0.808081   0.282718   bar
9    0.909091  -0.020648   bar
10   1.010101   1.093629   foo
11   1.111111   0.506404   bar
12   1.212121   1.348087   foo
13   1.313131   1.110238   bar
14   1.414141   1.764410   foo
15   1.515152   0.272222   bar
16   1.616162   1.213607   bar
17   1.717172   1.438176   bar
18   1.818182   2.304399   foo
19   1.919192   1.335145   bar
20   2.020202   1.248092   bar
21   2.121212   1.660103   bar
22   2.222222   0.593840   bar
23   2.323232   1.909444   bar
24   2.424242   2.400757   bar
25   2.525253   3.185248   foo
26   2.626263   4.088094   foo
27   2.727273   2.337386   bar
28   2.828283   2.882650   foo
29   2.929293   0.829642   bar
30   3.030303   2.646594   bar
31   3.131313   2.881357   bar
32   3.232323   1.546823   bar
33   3.333333   2.893013   bar
34   3.434343   4.681140   foo
35   3.535354   3.021145   bar
36   3.636364   3.195471   bar
37   3.737374   4.902944   foo
38   3.838384   4.555944   foo
39   3.939394   4.886099   foo
40   4.040404   3.897697   bar
41   4.141414   4.526219   foo
42   4.242424   3.489706   bar
43   4.343434   5.844848   foo
44   4.444444   3.898243   bar
45   4.545455   6.021571   foo
46   4.646465   5.083127   foo
47   4.747475   4.133971   bar
48   4.848485   5.617304   foo
49   4.949495   4.459923   bar
50   5.050505   5.349897   foo
51   5.151515   5.411291   foo
52   5.252525   4.768744   bar
53   5.353535   7.369567   foo
54   5.454545   5.385912   bar
55   5.555556   4.926388   bar
56   5.656566   5.818464   foo
57   5.757576   6.187041   foo
58   5.858586   6.668782   foo
59   5.959596   5.828387   bar
60   6.060606   6.426380   foo
61   6.161616   7.353234   foo
62   6.262626   5.798445   bar
63   6.363636   5.927434   bar
64   6.464646   5.544763   bar
65   6.565657   6.102979   bar
66   6.666667   7.031183   foo
67   6.767677   6.362589   bar
68   6.868687   7.254963   foo
69   6.969697   6.169586   bar
70   7.070707   7.482600   foo
71   7.171717   7.446631   foo
72   7.272727   7.660001   foo
73   7.373737   8.208225   foo
74   7.474747   5.987530   bar
75   7.575758   9.913713   foo
76   7.676768   8.804760   foo
77   7.777778   8.699308   foo
78   7.878788   6.577865   bar
79   7.979798   8.645006   foo
80   8.080808   8.412962   foo
81   8.181818   6.758407   bar
82   8.282828   7.940322   bar
83   8.383838   8.516038   foo
84   8.484848   8.767567   foo
85   8.585859   7.462330   bar
86   8.686869   8.908235   foo
87   8.787879   6.511109   bar
88   8.888889   8.513354   bar
89   8.989899  11.868279   foo
90   9.090909   9.609625   foo
91   9.191919   8.790579   bar
92   9.292929  10.134903   foo
93   9.393939   7.106952   bar
94   9.494949  10.795591   foo
95   9.595960   9.066586   bar
96   

Note: exercises_2020/Data/erdinger.txt
time height height-error
   0  17.0           0.0 
  15  16.1           0.3 
  30  14.9           0.4 
  45  14.0           0.4 
  60  13.2           0.4 
  75  12.5           0.6 
  90  11.9           0.4 
 105  11.2           0.4 
 120  10.7           0.4 
 150   9.7           0.4 
 180   8.9           0.3 
 210   8.3           0.4 
 240   7.5           0.4 
 300   6.3           0.5 
 360   5.2           0.5

Note: exercises_2020/Data/fertilizer.txt
"50 g/bu","100 g/bu","200 g/bu","400 g/bu"
13.20,16.00,7.80,21.00
12.40,12.60,14.40,14.80
12.80,14.80,20.00,19.10
17.20,13.00,15.80,15.80
13.00,14.00,17.00,18.00
14.00,23.60,27.00,26.00
14.20,14.00,19.60,21.10
21.60,17.00,18.00,22.00
15.00,22.20,20.20,25.00
20.00,24.40,23.20,18.20

Note: exercises_2020/README.md
# Exercise notebooks from 2020

This folder contains jupyter notebooks for the exercises in 2020.

File: concrete_data.csv
Sample ID,Cement (component 1)(kg in a m^3 mixture),Blast Furnace Slag (component 2)(kg in a m^3 mixture),Fly Ash (component 3)(kg in a m^3 mixture),Water  (component 4)(kg in a m^3 mixture),Superplasticizer (component 5)(kg in a m^3 mixture),Coarse Aggregate  (component 6)(kg in a m^3 mixture),Fine Aggregate (component 7)(kg in a m^3 mixture),Age (day),"Concrete compressive strength(MPa, megapascals)"
0,540.0,0.0,0.0,162.0,2.5,1040.0,676.0,28,79.9861
6,380.0,95.0,0.0,228.0,0.0,932.0,594.0,365,43.6983
12,427.5,47.5,0.0,228.0,0.0,932.0,594.0,270,43.013
18,380.0,95.0,0.0,228.0,0.0,932.0,594.0,90,40.5633
24,380.0,0.0,0.0,228.0,0.0,932.0,670.0,365,52.5167
30,304.0,76.0,0.0,228.0,0.0,932.0,670.0,365,55.2601
36,237.5,237.5,0.0,228.0,0.0,932.0,594.0,28,30.0798
42,237.5,237.5,0.0,228.0,0.0,932.0,594.0,365,38.9954
48,237.5,237.5,0.0,228.0,0.0,932.0,594.0,7,26.258
54,139.6,209.4,0.0,192.0,0.0,1047.0,806.9,7,14.5893
60,304.0,76.0,0.0,228.0,0.0,932.0,670.0,270,54.3783
66,139.6,209.4,0.0,192.0,0.0,1047.0,806.9,360,44.698
72,425.0,106.3,0.0,153.5,16.5,852.1,887.1,3,33.3982
78,388.6,97.1,0.0,157.9,12.1,852.1,925.7,3,28.0961
84,323.7,282.8,0.0,183.8,10.3,942.7,659.9,3,28.2961
90,389.9,189.0,0.0,145.9,22.0,944.7,755.8,3,40.5963
96,425.0,106.3,0.0,151.4,18.6,936.0,803.7,7,46.8016
102,531.3,0.0,0.0,141.8,28.2,852.1,893.7,7,46.8982
108,379.5,151.2,0.0,153.9,15.9,1134.3,605.0,7,47.0981
114,362.6,189.0,0.0,164.9,11.6,944.7,755.8,7,22.8975
120,375.0,93.8,0.0,126.6,23.4,852.1,992.6,28,56.6956
126,425.0,106.3,0.0,153.5,16.5,852.1,887.1,28,60.2947
132,362.6,189.0,0.0,164.9,11.6,944.7,755.8,28,71.2987
138,337.9,189.0,0.0,174.9,9.5,944.7,755.8,28,49.8974
144,475.0,118.8,0.0,181.1,8.9,852.1,781.5,56,72.2985
150,318.8,212.5,0.0,155.7,14.3,852.1,880.4,56,66.1001
156,286.3,200.9,0.0,144.7,11.2,1004.6,803.7,56,72.9948
162,374.0,189.2,0.0,170.1,10.1,926.1,756.7,91,64.9004
168,469.0,117.2,0.0,137.8,32.2,852.1,840.5,91,70.6989
174,401.8,94.7,0.0,147.4,11.4,946.8,852.1,91,75.4976
180,439.0,177.0,0.0,186.0,11.1,884.9,707.9,91,73.2982
186,222.36,0.0,96.67,189.29,4.46,967.08,870.32,28,24.8901
192,233.81,0.0,94.58,197.89,4.567,947.04,852.16,56,27.6618
198,194.68,0.0,100.52,165.62,7.48,1006.4,905.9,100,37.342
204,212.07,0.0,121.62,180.31,5.69,1057.6,779.32,3,12.4726
210,229.97,0.0,118.31,195.47,4.63,1029.4,758.59,14,20.0844
216,190.34,0.0,125.18,161.85,9.88,1088.1,802.59,28,28.4685
222,166.09,0.0,163.27,176.46,4.49,1058.6,780.09,56,28.627
228,167.95,42.08,163.83,121.75,5.72,1058.7,780.11,100,39.2312
234,213.76,98.06,24.52,181.74,6.65,1066.0,785.52,3,13.1828
240,229.68,0.0,118.16,195.23,6.13,1028.1,757.63,14,22.3183
246,238.05,0.0,94.11,186.66,7.0,949.91,847.01,28,30.2335
252,250.0,0.0,95.69,187.42,5.53,956.86,861.17,56,38.328
258,212.52,0.0,100.37,159.32,8.71,1007.8,903.59,100,42.9199
264,212.0,0.0,124.78,159.0,7.84,1085.4,799.54,3,19.5191
270,231.75,0.0,121.62,173.96,6.72,1056.4,778.45,14,26.7724
276,251.37,0.0,118.27,188.45,5.75,1028.4,757.73,28,29.6544
282,251.37,0.0,118.27,188.45,6.35,1028.4,757.73,56,36.6388
288,181.38,0.0,167.01,169.59,7.56,1055.6,777.8,100,45.3675
294,168.88,42.22,124.25,158.33,10.83,1080.8,796.15,3,7.39808
300,290.35,0.0,96.18,168.08,9.41,961.18,865.0,14,34.6737
306,277.05,0.0,97.39,160.6,11.83,973.9,875.61,28,48.284
312,295.71,0.0,95.64,171.54,8.87,955.14,859.2,56,48.7184
318,251.81,0.0,99.94,146.14,12.35,1006.0,899.76,100,45.3675
324,252.31,0.0,98.75,146.25,14.17,987.76,889.01,3,21.7805
330,246.83,0.0,125.08,143.3,11.99,1086.8,800.89,14,42.2166
336,275.07,0.0,121.35,159.48,9.9,1053.6,777.5,28,51.3315
342,297.16,0.0,117.54,174.8,9.52,1022.8,753.45,56,51.9589
348,213.74,0.0,174.74,154.79,10.16,1053.5,776.35,100,50.0766
354,277.19,97.82,24.46,160.7,11.19,1061.7,782.46,3,30.4473
360,218.23,54.64,123.78,140.75,11.91,1075.7,792.67,14,35.9562
366,214.9,53.8,121.89,155.63,9.61,1014.3,780.58,28,52.2002
372,218.85,0.0,124.13,158.49,11.33,1078.7,794.91,56,37.2662
378,376.0,0.0,0.0,214.6,0.0,1003.5,762.36,100,43.0578
384,516.0,0.0,0.0,162.0,8.2,801.0,802.0,28,41.3686
390,450.1,50.0,0.0,200.0,3.0,1124.4,613.2,28,39.376
396,516.0,0.0,0.0,162.0,8.26,801.0,802.0,28,41.3686
402,285.0,190.0,0.0,163.0,7.6,1031.0,685.0,28,53.5792
408,178.03,129.8,118.6,179.94,3.57,1007.3,746.8,3,20.7256
414,190.34,0.0,125.18,166.61,9.88,1079.0,798.9,3,12.5485
420,165.0,128.5,132.1,175.06,8.08,1005.8,746.6,14,33.088
426,173.81,93.37,159.9,172.34,9.73,1007.2,746.6,14,29.5509
432,165.0,0.02,143.57,163.81,0.0,1005.6,900.9,28,26.2001
438,167.0,75.4,167.0,164.03,7.91,1007.3,770.1,28,41.4099
444,251.37,0.0,118.27,192.94,5.75,1043.6,754.3,28,33.2741
450,173.54,50.05,173.53,164.77,6.47,1006.2,793.5,56,53.7722
456,194.68,0.0,100.52,170.17,7.48,998.0,901.8,56,43.3887
462,172.38,13.61,172.37,156.76,4.14,1006.3,856.4,100,37.6799
468,213.5,0.0,174.24,159.21,11.66,1043.6,771.9,100,52.9587
474,446.0,24.0,79.0,162.0,10.3,967.0,712.0,28,53.3861
480,446.0,24.0,79.0,162.0,11.64,967.0,712.0,7,39.3001
486,387.0,20.0,94.0,157.0,13.93,938.0,845.0,28,46.6844
492,387.0,20.0,94.0,157.0,13.93,938.0,845.0,7,45.8984
498,355.0,19.0,97.0,145.0,12.25,967.0,871.0,28,55.4546
504,491.0,26.0,123.0,201.0,3.93,822.0,699.0,3,29.549
510,424.0,22.0,132.0,178.0,8.48,822.0,750.0,7,39.0046
516,202.0,11.0,141.0,206.0,1.72,942.0,801.0,3,9.84966
522,284.0,15.0,141.0,179.0,5.46,842.0,801.0,56,44.5205
528,359.0,19.0,141.0,154.0,10.91,942.0,801.0,7,38.6107
534,393.0,0.0,0.0,192.0,0.0,940.6,785.6,3,19.1991
540,480.0,0.0,0.0,192.0,0.0,936.2,712.2,3,24.4047
546,333.0,0.0,0.0,192.0,0.0,931.2,842.6,28,31.9669
552,158.8,238.2,0.0,185.7,0.0,1040.6,734.3,7,9.6175
558,272.8,181.9,0.0,185.7,0.0,1012.4,714.3,7,19.7652
564,158.8,238.2,0.0,185.7,0.0,1040.6,734.3,28,21.0662
570,295.8,0.0,0.0,185.7,0.0,1091.4,769.3,28,25.2169
576,339.2,0.0,0.0,185.7,0.0,1069.2,754.3,7,21.1793
582,170.3,155.5,0.0,185.7,0.0,1026.6,724.3,28,25.7264
588,186.2,124.1,0.0,185.7,0.0,1083.4,764.3,7,7.99585
594,316.1,210.7,0.0,185.7,0.0,977.0,689.3,7,24.4378
600,339.0,0.0,0.0,197.0,0.0,968.0,781.0,14,27.0412
606,236.0,0.0,0.0,194.0,0.0,968.0,885.0,14,12.838
612,277.0,0.0,0.0,191.0,0.0,968.0,856.0,28,25.9657
618,254.0,0.0,0.0,198.0,0.0,968.0,863.0,90,26.9447
624,307.0,0.0,0.0,193.0,0.0,968.0,812.0,28,27.5308
630,225.0,0.0,0.0,181.0,0.0,1113.0,833.0,28,17.3403
636,300.0,0.0,0.0,184.0,0.0,1075.0,795.0,28,26.8482
642,250.0,0.0,0.0,182.0,0.0,1100.0,820.0,28,20.8704
648,141.3,212.0,0.0,203.5,0.0,971.8,748.5,28,29.8922
654,122.6,183.9,0.0,203.5,0.0,958.2,800.1,28,24.2909
660,116.0,173.0,0.0,192.0,0.0,909.8,891.9,90,31.0237
666,192.0,288.0,0.0,192.0,0.0,929.8,716.1,3,12.7884
672,173.0,116.0,0.0,192.0,0.0,946.8,856.8,3,6.94095
678,288.0,192.0,0.0,192.0,0.0,932.0,717.8,28,38.8044
684,192.0,288.0,0.0,192.0,0.0,929.8,716.1,90,50.7323
690,288.0,192.0,0.0,192.0,0.0,932.0,717.8,7,23.5235
696,183.9,122.6,0.0,203.5,0.0,959.2,800.0,7,10.7875
702,200.0,133.0,0.0,192.0,0.0,965.4,806.2,7,17.1659
708,116.0,173.0,0.0,192.0,0.0,909.8,891.9,3,6.28044
714,153.0,102.0,0.0,192.0,0.0,888.0,943.1,7,8.37438
720,203.5,305.3,0.0,203.5,0.0,963.4,630.0,90,51.8638
726,331.0,0.0,0.0,192.0,0.0,1025.0,821.0,3,14.3066
732,349.0,0.0,0.0,192.0,0.0,1056.0,809.0,7,9.01145
738,296.0,0.0,0.0,186.0,0.0,1090.0,769.0,7,18.9123
744,281.0,0.0,0.0,186.0,0.0,1104.0,774.0,7,14.4997
750,500.0,0.0,0.0,200.0,0.0,1125.0,613.0,28,44.092
756,540.0,0.0,0.0,173.0,0.0,1125.0,613.0,270,74.1669
762,350.0,0.0,0.0,203.0,0.0,974.0,775.0,180,32.7225
768,331.0,0.0,0.0,192.0,0.0,978.0,825.0,180,38.9968
774,382.0,0.0,0.0,186.0,0.0,1111.0,784.0,7,11.466
780,238.0,0.0,0.0,185.0,0.0,1118.0,789.0,28,17.5403
786,331.0,0.0,0.0,192.0,0.0,978.0,825.0,28,31.447
792,349.0,0.0,0.0,192.0,0.0,1047.0,806.0,360,42.127
798,500.0,0.0,0.0,200.0,0.0,1125.0,613.0,270,55.1581
804,393.0,0.0,0.0,192.0,0.0,940.0,758.0,28,39.5828
810,310.0,0.0,0.0,192.0,0.0,970.0,850.0,7,14.9892
816,525.0,0.0,0.0,189.0,0.0,1125.0,613.0,7,42.4235
822,322.0,0.0,0.0,203.0,0.0,974.0,800.0,28,25.1797
828,522.0,0.0,0.0,146.0,0.0,896.0,896.0,28,74.9874
834,310.0,143.0,111.0,168.0,22.0,914.0,651.0,28,33.6878
840,310.0,143.0,0.0,168.0,10.0,914.0,804.0,28,45.2986
846,366.0,187.0,0.0,191.0,7.0,824.0,757.0,28,65.907
852,298.0,0.0,107.0,186.0,6.0,879.0,815.0,28,42.6372
858,322.0,149.0,0.0,186.0,8.0,951.0,709.0,28,52.4209
864,298.0,0.0,107.0,210.0,11.0,880.0,744.0,28,31.8745
870,149.0,139.0,109.0,193.0,6.0,892.0,780.0,28,23.6904
876,146.0,230.0,0.0,202.0,3.0,827.0,872.0,28,33.0604
882,140.0,133.0,103.0,200.0,7.0,916.0,753.0,28,36.4388
888,153.0,145.0,0.0,178.0,8.0,1000.0,822.0,28,19.0089
894,143.0,169.0,143.0,191.0,8.0,967.0,643.0,28,29.7233
900,150.0,237.0,0.0,174.0,12.0,1069.0,675.0,28,37.4317
906,266.0,112.0,87.0,178.0,10.0,910.0,745.0,28,39.4173
912,277.0,117.0,91.0,191.0,7.0,946.0,666.0,28,43.5749
918,145.0,0.0,179.0,202.0,8.0,824.0,869.0,28,10.5352
924,136.0,196.0,98.0,199.0,6.0,847.0,783.0,28,26.9654
930,159.0,209.0,161.0,201.0,7.0,848.0,669.0,28,30.8816
936,236.9,91.7,71.5,246.9,6.0,852.9,695.4,28,28.6298
942,313.3,145.0,0.0,178.5,8.0,867.2,824.0,28,40.9252
948,153.1,145.0,113.0,178.5,8.0,867.2,824.0,28,26.2332
954,150.7,0.0,185.3,166.7,15.6,1074.5,678.0,28,13.4613
960,284.0,119.7,0.0,168.3,7.2,970.4,794.2,28,40.9349
966,154.8,0.0,142.8,193.3,9.1,1047.4,696.7,28,12.4595
972,145.7,172.6,0.0,181.9,3.4,985.8,816.8,28,23.7442
978,155.2,183.9,143.2,193.8,9.2,879.6,698.5,28,28.9911
984,154.8,0.0,142.8,193.3,9.1,877.2,867.7,28,9.73816
990,151.8,178.1,138.7,167.5,18.3,944.0,694.6,28,36.3499
996,152.6,238.7,0.0,200.0,6.3,1001.8,683.9,28,26.8599
1002,321.3,164.2,0.0,190.5,4.6,870.0,774.0,28,57.2182
1008,160.2,188.0,146.4,203.2,11.3,828.7,709.7,28,35.3143
1014,132.0,206.5,160.9,178.9,5.5,866.9,735.6,28,33.3065
1020,288.4,121.0,0.0,177.4,7.0,907.9,829.5,28,42.1401
1026,322.2,0.0,115.6,196.0,10.4,817.9,813.4,28,31.1788
1029,260.9,100.5,78.3,200.6,8.6,864.5,761.5,28,32.4012